Sample Time, Accel_x,Accel_y,Accel_z,Gyro_x,Gyro_y,Gyro_z,Magneto_x,Magneto_y,Magneto_z
0.000000,126.000000,-1252.000000,-525.000000,2029.000000,598.000000,149.000000,111.000000,763.000000,-194.000000
0.050000,-273.000000,-1125.000000,-343.000000,1826.000000,714.000000,298.000000,101.000000,770.000000,-246.000000
0.100000,-159.000000,-1080.000000,-161.000000,1437.000000,452.000000,450.000000,83.000000,782.000000,-278.000000
0.150000,-196.000000,-931.000000,67.000000,1033.000000,263.000000,618.000000,59.000000,806.000000,-308.000000
0.200000,-122.000000,-704.000000,208.000000,714.000000,258.000000,462.000000,38.000000,817.000000,-330.000000
0.250000,-364.000000,-765.000000,362.000000,677.000000,-119.000000,444.000000,15.000000,820.000000,-338.000000
0.300000,-196.000000,-693.000000,375.000000,44.000000,-50.000000,191.000000,5.000000,823.000000,-356.000000
0.350000,-259.000000,-939.000000,207.000000,290.000000,-226.000000,-127.000000,17.000000,814.000000,-363.000000
0.400000,-127.000000,-732.000000,300.000000,-99.000000,-547.000000,-57.000000,18.000000,800.000000,-368.000000
0.450000,-712.000000,547.000000,1132.000000,2324.000000,-310.000000,607.000000,-6.000000,787.000000,-412.000000
0.500000,109.000000,-260.000000,132.000000,-2328.000000,-249.000000,0.000000,57.000000,760.000000,-366.000000
0.550000,-420.000000,-1207.000000,-120.000000,-1789.000000,-986.000000,-128.000000,102.000000,751.000000,-302.000000
0.600000,-461.000000,-1212.000000,-14.000000,-11.000000,-210.000000,-172.000000,125.000000,719.000000,-305.000000
0.650000,-212.000000,-682.000000,-131.000000,903.000000,513.000000,170.000000,113.000000,727.000000,-311.000000
0.700000,-144.000000,-857.000000,-67.000000,1730.000000,819.000000,-94.000000,84.000000,740.000000,-356.000000
0.750000,-293.000000,-974.000000,-13.000000,1509.000000,774.000000,-12.000000,35.000000,769.000000,-378.000000
0.800000,-175.000000,-735.000000,195.000000,361.000000,922.000000,706.000000,-1.000000,815.000000,-363.000000
0.850000,-87.000000,-566.000000,354.000000,-865.000000,77.000000,47.000000,-3.000000,826.000000,-344.000000
0.900000,-316.000000,-572.000000,117.000000,-1464.000000,-751.000000,-834.000000,26.000000,823.000000,-297.000000
0.950000,166.000000,-1404.000000,-67.000000,-968.000000,-1362.000000,-1196.000000,57.000000,790.000000,-282.000000
1.000000,64.000000,-1030.000000,-215.000000,-1365.000000,-293.000000,63.000000,68.000000,800.000000,-255.000000
1.050000,-178.000000,-996.000000,-469.000000,-1712.000000,-212.000000,-172.000000,72.000000,793.000000,-207.000000
1.100000,-95.000000,-1093.000000,-521.000000,-1544.000000,-1211.000000,-369.000000,75.000000,797.000000,-171.000000
1.150000,-327.000000,-1043.000000,-562.000000,-1548.000000,-1055.000000,-159.000000,74.000000,799.000000,-146.000000
1.200000,-121.000000,-1033.000000,-711.000000,-1641.000000,-856.000000,-25.000000,71.000000,805.000000,-105.000000
1.250000,-523.000000,-1034.000000,-612.000000,-1420.000000,-728.000000,177.000000,53.000000,824.000000,-80.000000
1.300000,240.000000,-650.000000,-666.000000,-1299.000000,-533.000000,154.000000,26.000000,836.000000,-54.000000
1.350000,-538.000000,-678.000000,-512.000000,-740.000000,-644.000000,-58.000000,26.000000,835.000000,-33.000000
1.400000,-42.000000,-545.000000,-460.000000,-399.000000,-151.000000,42.000000,6.000000,848.000000,-29.000000
1.450000,-273.000000,-608.000000,-447.000000,18.000000,-41.000000,-42.000000,17.000000,848.000000,-29.000000
1.500000,-356.000000,-591.000000,-476.000000,318.000000,291.000000,-93.000000,17.000000,839.000000,-35.000000
1.550000,-61.000000,-673.000000,-513.000000,647.000000,609.000000,-24.000000,26.000000,829.000000,-36.000000
1.600000,-134.000000,-774.000000,-683.000000,975.000000,1097.000000,35.000000,42.000000,811.000000,-42.000000
1.650000,-27.000000,-834.000000,-800.000000,1306.000000,987.000000,118.000000,60.000000,790.000000,-59.000000
1.700000,-42.000000,-1031.000000,-892.000000,1722.000000,1008.000000,125.000000,75.000000,788.000000,-81.000000
1.750000,-229.000000,-1169.000000,-793.000000,1953.000000,812.000000,78.000000,93.000000,781.000000,-113.000000
1.800000,-54.000000,-1092.000000,-627.000000,1990.000000,480.000000,88.000000,96.000000,767.000000,-165.000000
1.850000,-130.000000,-1169.000000,-405.000000,1741.000000,528.000000,181.000000,107.000000,779.000000,-224.000000
1.900000,-18.000000,-1034.000000,-183.000000,1395.000000,254.000000,243.000000,87.000000,791.000000,-252.000000
1.950000,-327.000000,-764.000000,-61.000000,1030.000000,645.000000,303.000000,77.000000,787.000000,-276.000000
2.000000,-203.000000,-874.000000,104.000000,767.000000,277.000000,487.000000,62.000000,800.000000,-294.000000
2.050000,-262.000000,-732.000000,166.000000,399.000000,586.000000,466.000000,38.000000,812.000000,-311.000000
2.100000,-315.000000,-812.000000,251.000000,83.000000,277.000000,343.000000,30.000000,820.000000,-308.000000
2.150000,-142.000000,-1011.000000,187.000000,256.000000,-364.000000,145.000000,29.000000,809.000000,-315.000000
2.200000,-228.000000,-540.000000,86.000000,-208.000000,-569.000000,359.000000,24.000000,800.000000,-332.000000
2.250000,-464.000000,-325.000000,684.000000,3160.000000,-407.000000,529.000000,9.000000,796.000000,-381.000000
2.300000,-12.000000,-452.000000,205.000000,-920.000000,-1220.000000,345.000000,60.000000,773.000000,-345.000000
2.350000,-272.000000,-929.000000,-215.000000,-3099.000000,-924.000000,-58.000000,96.000000,751.000000,-269.000000
2.400000,-413.000000,-1107.000000,-132.000000,-280.000000,-371.000000,-73.000000,108.000000,755.000000,-240.000000
2.450000,-237.000000,-1287.000000,-316.000000,606.000000,370.000000,67.000000,98.000000,754.000000,-264.000000
2.500000,-175.000000,-897.000000,-146.000000,2218.000000,1027.000000,-53.000000,68.000000,757.000000,-318.000000
2.550000,-277.000000,-902.000000,-134.000000,1649.000000,906.000000,385.000000,20.000000,791.000000,-345.000000
2.600000,58.000000,-929.000000,94.000000,627.000000,840.000000,601.000000,-9.000000,836.000000,-332.000000
2.650000,-210.000000,-719.000000,254.000000,-827.000000,415.000000,-110.000000,-12.000000,848.000000,-299.000000
2.700000,-297.000000,-808.000000,-54.000000,-900.000000,-518.000000,-629.000000,12.000000,848.000000,-281.000000
2.750000,-100.000000,-1238.000000,-102.000000,-702.000000,-320.000000,-544.000000,33.000000,818.000000,-266.000000
2.800000,-105.000000,-744.000000,-261.000000,-885.000000,-478.000000,-225.000000,51.000000,823.000000,-248.000000
2.850000,-365.000000,-958.000000,-525.000000,-1402.000000,-280.000000,3.000000,48.000000,821.000000,-224.000000
2.900000,-146.000000,-1112.000000,-613.000000,-1777.000000,-369.000000,-228.000000,62.000000,826.000000,-179.000000
2.950000,-110.000000,-1076.000000,-559.000000,-1885.000000,-826.000000,-42.000000,59.000000,827.000000,-140.000000
3.000000,-472.000000,-1114.000000,-639.000000,-1687.000000,-502.000000,-72.000000,39.000000,838.000000,-95.000000
3.050000,-579.000000,-924.000000,-628.000000,-1527.000000,-866.000000,23.000000,29.000000,841.000000,-68.000000
3.100000,-53.000000,-815.000000,-675.000000,-1470.000000,-569.000000,72.000000,9.000000,860.000000,-51.000000
3.150000,-515.000000,-715.000000,-634.000000,-1288.000000,-532.000000,79.000000,-7.000000,872.000000,-21.000000
3.200000,-387.000000,-548.000000,-599.000000,-914.000000,33.000000,105.000000,-34.000000,881.000000,-9.000000
3.250000,-205.000000,-390.000000,-639.000000,-439.000000,-285.000000,-39.000000,-54.000000,887.000000,-5.000000
3.300000,-291.000000,-409.000000,-529.000000,-16.000000,-131.000000,-148.000000,-55.000000,887.000000,-3.000000
3.350000,-192.000000,-516.000000,-357.000000,422.000000,-49.000000,-204.000000,-46.000000,877.000000,-15.000000
3.400000,-267.000000,-616.000000,-410.000000,819.000000,422.000000,-128.000000,-16.000000,866.000000,-8.000000
3.450000,-225.000000,-713.000000,-550.000000,1256.000000,672.000000,-157.000000,-7.000000,853.000000,-30.000000
3.500000,-24.000000,-827.000000,-753.000000,1633.000000,768.000000,147.000000,23.000000,838.000000,-50.000000
3.550000,-217.000000,-1069.000000,-889.000000,1932.000000,1089.000000,-144.000000,41.000000,818.000000,-74.000000
3.600000,-483.000000,-1226.000000,-899.000000,2058.000000,216.000000,-203.000000,69.000000,809.000000,-122.000000
3.650000,-78.000000,-1136.000000,-750.000000,1665.000000,193.000000,121.000000,81.000000,797.000000,-179.000000
3.700000,-338.000000,-1012.000000,-610.000000,1405.000000,828.000000,466.000000,72.000000,811.000000,-206.000000
3.750000,-1.000000,-928.000000,-360.000000,1197.000000,207.000000,402.000000,65.000000,823.000000,-228.000000
3.800000,-632.000000,-752.000000,-85.000000,877.000000,135.000000,525.000000,47.000000,827.000000,-246.000000
3.850000,25.000000,-690.000000,98.000000,626.000000,-314.000000,320.000000,29.000000,839.000000,-281.000000
3.900000,-477.000000,-776.000000,346.000000,142.000000,284.000000,333.000000,21.000000,841.000000,-293.000000
3.950000,-155.000000,-784.000000,329.000000,219.000000,-484.000000,-56.000000,18.000000,835.000000,-296.000000
4.000000,-384.000000,-1358.000000,75.000000,94.000000,-567.000000,-337.000000,38.000000,814.000000,-326.000000
4.050000,-416.000000,-1110.000000,-283.000000,-3275.000000,-1321.000000,-58.000000,57.000000,805.000000,-330.000000
4.100000,-29.000000,-1417.000000,52.000000,-2954.000000,-937.000000,-469.000000,108.000000,775.000000,-276.000000
4.150000,-569.000000,-1018.000000,-451.000000,-954.000000,-533.000000,-316.000000,140.000000,761.000000,-224.000000
4.200000,-554.000000,-1007.000000,-340.000000,87.000000,-105.000000,54.000000,144.000000,752.000000,-219.000000
4.250000,-100.000000,-1039.000000,-189.000000,235.000000,418.000000,320.000000,135.000000,763.000000,-243.000000
4.300000,-400.000000,-886.000000,-410.000000,2115.000000,1230.000000,125.000000,110.000000,778.000000,-284.000000
4.350000,-330.000000,-806.000000,-30.000000,2144.000000,1376.000000,-36.000000,68.000000,799.000000,-327.000000
4.400000,-238.000000,-594.000000,148.000000,1012.000000,1309.000000,550.000000,17.000000,827.000000,-326.000000
4.450000,101.000000,-827.000000,324.000000,-296.000000,-336.000000,-234.000000,6.000000,847.000000,-305.000000
4.500000,-128.000000,-588.000000,23.000000,-1064.000000,836.000000,-497.000000,18.000000,838.000000,-261.000000
4.550000,-472.000000,-1144.000000,-331.000000,-1476.000000,-184.000000,-630.000000,47.000000,836.000000,-230.000000
4.600000,-24.000000,-715.000000,-278.000000,-1448.000000,-46.000000,-121.000000,54.000000,817.000000,-200.000000
4.650000,-172.000000,-1233.000000,-663.000000,-1995.000000,182.000000,-242.000000,54.000000,818.000000,-135.000000
4.700000,-84.000000,-1092.000000,-665.000000,-1687.000000,-515.000000,-401.000000,51.000000,818.000000,-84.000000
4.750000,-19.000000,-824.000000,-602.000000,-1580.000000,-308.000000,-422.000000,38.000000,805.000000,-51.000000
4.800000,-36.000000,-795.000000,-636.000000,-1495.000000,-798.000000,-464.000000,30.000000,817.000000,-17.000000
4.850000,-327.000000,-1033.000000,-883.000000,-1464.000000,-245.000000,-464.000000,6.000000,808.000000,7.000000
4.900000,-37.000000,-616.000000,-848.000000,-1138.000000,-760.000000,-393.000000,-3.000000,818.000000,24.000000
4.950000,-327.000000,-681.000000,-825.000000,-814.000000,-85.000000,-214.000000,-19.000000,814.000000,46.000000
5.000000,-67.000000,-573.000000,-818.000000,-387.000000,-275.000000,-140.000000,-27.000000,815.000000,49.000000
5.050000,-365.000000,-531.000000,-773.000000,140.000000,170.000000,-184.000000,-22.000000,812.000000,52.000000
5.100000,-82.000000,-620.000000,-698.000000,477.000000,194.000000,-78.000000,-21.000000,793.000000,40.000000
5.150000,7.000000,-671.000000,-691.000000,857.000000,564.000000,230.000000,0.000000,791.000000,39.000000
5.200000,-209.000000,-632.000000,-807.000000,1302.000000,924.000000,309.000000,23.000000,782.000000,25.000000
5.250000,53.000000,-950.000000,-852.000000,1788.000000,260.000000,522.000000,45.000000,785.000000,-12.000000
5.300000,-62.000000,-984.000000,-779.000000,2028.000000,522.000000,280.000000,65.000000,787.000000,-56.000000
5.350000,-267.000000,-1051.000000,-614.000000,1943.000000,7.000000,420.000000,80.000000,778.000000,-111.000000
5.400000,111.000000,-1174.000000,-344.000000,1647.000000,140.000000,417.000000,83.000000,797.000000,-164.000000
5.450000,-224.000000,-991.000000,-251.000000,1432.000000,165.000000,630.000000,75.000000,808.000000,-201.000000
5.500000,-316.000000,-871.000000,-76.000000,1054.000000,15.000000,571.000000,53.000000,826.000000,-233.000000
5.550000,-296.000000,-783.000000,23.000000,798.000000,-58.000000,510.000000,26.000000,838.000000,-261.000000
5.600000,-131.000000,-716.000000,179.000000,728.000000,-101.000000,404.000000,11.000000,848.000000,-279.000000
5.650000,-334.000000,-935.000000,135.000000,289.000000,-200.000000,22.000000,8.000000,839.000000,-302.000000
5.700000,-216.000000,-853.000000,83.000000,191.000000,-625.000000,-183.000000,12.000000,826.000000,-329.000000
5.750000,-145.000000,-643.000000,276.000000,130.000000,-689.000000,16.000000,14.000000,809.000000,-365.000000
5.800000,-162.000000,-1088.000000,174.000000,-2191.000000,-1337.000000,7.000000,33.000000,784.000000,-363.000000
5.850000,-153.000000,-934.000000,-94.000000,-3301.000000,-1094.000000,-231.000000,90.000000,752.000000,-324.000000
5.900000,-250.000000,-936.000000,-480.000000,-2462.000000,-1151.000000,94.000000,126.000000,739.000000,-243.000000
5.950000,-525.000000,-1169.000000,-266.000000,-658.000000,-93.000000,-234.000000,143.000000,731.000000,-209.000000
6.000000,-349.000000,-1101.000000,-397.000000,98.000000,547.000000,110.000000,135.000000,736.000000,-206.000000
6.050000,-277.000000,-954.000000,-592.000000,2247.000000,1407.000000,13.000000,117.000000,743.000000,-248.000000
6.100000,-503.000000,-891.000000,-229.000000,2466.000000,1710.000000,60.000000,77.000000,761.000000,-306.000000
6.150000,-218.000000,-645.000000,75.000000,1131.000000,914.000000,687.000000,39.000000,803.000000,-305.000000
6.200000,-8.000000,-612.000000,83.000000,-437.000000,531.000000,86.000000,24.000000,832.000000,-279.000000
6.250000,-207.000000,-1205.000000,-20.000000,-1346.000000,82.000000,-217.000000,35.000000,841.000000,-239.000000
6.300000,-274.000000,-670.000000,-262.000000,-824.000000,-229.000000,-22.000000,42.000000,839.000000,-228.000000
6.350000,-93.000000,-964.000000,-461.000000,-1307.000000,-367.000000,-210.000000,44.000000,839.000000,-198.000000
6.400000,-244.000000,-904.000000,-591.000000,-1506.000000,-379.000000,-460.000000,50.000000,826.000000,-162.000000
6.450000,-234.000000,-995.000000,-590.000000,-1605.000000,-673.000000,-514.000000,50.000000,821.000000,-125.000000
6.500000,-148.000000,-978.000000,-661.000000,-1640.000000,-1005.000000,-511.000000,60.000000,817.000000,-98.000000
6.550000,-139.000000,-1131.000000,-738.000000,-1955.000000,-695.000000,-812.000000,45.000000,814.000000,-65.000000
6.600000,-312.000000,-984.000000,-712.000000,-1448.000000,-1068.000000,-394.000000,36.000000,809.000000,-36.000000
6.650000,-267.000000,-876.000000,-697.000000,-1133.000000,-606.000000,-233.000000,32.000000,818.000000,-21.000000
6.700000,-165.000000,-629.000000,-710.000000,-914.000000,-749.000000,-245.000000,17.000000,826.000000,1.000000
6.750000,-503.000000,-578.000000,-721.000000,-506.000000,-550.000000,-247.000000,14.000000,830.000000,-12.000000
6.800000,-59.000000,-566.000000,-678.000000,-226.000000,-429.000000,-32.000000,5.000000,838.000000,-2.000000
6.850000,-318.000000,-515.000000,-589.000000,74.000000,130.000000,-54.000000,11.000000,833.000000,0.000000
6.900000,-46.000000,-587.000000,-513.000000,441.000000,289.000000,-111.000000,12.000000,833.000000,-9.000000
6.950000,-213.000000,-677.000000,-595.000000,755.000000,703.000000,-115.000000,33.000000,820.000000,-15.000000
7.000000,-221.000000,-795.000000,-606.000000,1069.000000,788.000000,280.000000,50.000000,797.000000,-26.000000
7.050000,45.000000,-739.000000,-819.000000,1395.000000,1527.000000,378.000000,57.000000,793.000000,-42.000000
7.100000,-295.000000,-939.000000,-928.000000,1670.000000,1360.000000,560.000000,69.000000,782.000000,-53.000000
7.150000,-413.000000,-983.000000,-1003.000000,1779.000000,1101.000000,528.000000,83.000000,779.000000,-84.000000
7.200000,-103.000000,-1156.000000,-759.000000,1582.000000,642.000000,725.000000,75.000000,796.000000,-122.000000
7.250000,-82.000000,-1018.000000,-625.000000,1443.000000,651.000000,791.000000,75.000000,817.000000,-141.000000
7.300000,-211.000000,-950.000000,-510.000000,1282.000000,275.000000,707.000000,60.000000,827.000000,-174.000000
7.350000,-273.000000,-780.000000,-267.000000,793.000000,27.000000,811.000000,42.000000,845.000000,-195.000000
7.400000,-155.000000,-651.000000,-40.000000,492.000000,158.000000,545.000000,29.000000,856.000000,-210.000000
7.450000,-562.000000,-757.000000,41.000000,317.000000,-25.000000,398.000000,3.000000,866.000000,-215.000000
7.500000,-275.000000,-798.000000,75.000000,347.000000,-527.000000,249.000000,0.000000,859.000000,-239.000000
7.550000,-310.000000,-1144.000000,140.000000,438.000000,-525.000000,189.000000,-7.000000,847.000000,-266.000000
7.600000,-233.000000,-725.000000,-165.000000,-1878.000000,-1426.000000,-473.000000,8.000000,832.000000,-282.000000
7.650000,-389.000000,-539.000000,303.000000,-765.000000,-648.000000,-702.000000,47.000000,809.000000,-276.000000
7.700000,-385.000000,-1006.000000,-300.000000,-2200.000000,-932.000000,-177.000000,90.000000,788.000000,-236.000000
7.750000,-513.000000,-1021.000000,-330.000000,-441.000000,-506.000000,-178.000000,96.000000,776.000000,-213.000000
7.800000,-208.000000,-1040.000000,-386.000000,343.000000,169.000000,-4.000000,104.000000,778.000000,-237.000000
7.850000,-277.000000,-861.000000,-559.000000,1360.000000,806.000000,-35.000000,81.000000,769.000000,-266.000000
7.900000,-449.000000,-868.000000,-436.000000,2023.000000,1525.000000,41.000000,50.000000,794.000000,-278.000000
7.950000,-253.000000,-887.000000,-49.000000,2021.000000,1092.000000,471.000000,17.000000,823.000000,-299.000000
8.000000,-203.000000,-654.000000,12.000000,198.000000,286.000000,-120.000000,-9.000000,848.000000,-278.000000
8.050000,-161.000000,-935.000000,91.000000,-412.000000,-186.000000,-310.000000,8.000000,842.000000,-263.000000
8.100000,-179.000000,-1057.000000,29.000000,-410.000000,-116.000000,-202.000000,18.000000,842.000000,-248.000000
8.150000,-312.000000,-684.000000,-99.000000,-597.000000,-372.000000,-143.000000,29.000000,847.000000,-251.000000
8.200000,-243.000000,-953.000000,-300.000000,-1141.000000,-277.000000,-153.000000,42.000000,847.000000,-221.000000
8.250000,-159.000000,-967.000000,-449.000000,-1519.000000,-448.000000,-205.000000,42.000000,847.000000,-195.000000
8.300000,-349.000000,-1114.000000,-563.000000,-1710.000000,-544.000000,-273.000000,39.000000,838.000000,-156.000000
8.350000,-313.000000,-1048.000000,-635.000000,-1653.000000,-678.000000,-273.000000,45.000000,835.000000,-113.000000
8.400000,-584.000000,-1031.000000,-531.000000,-1493.000000,-976.000000,-107.000000,33.000000,835.000000,-96.000000
8.450000,37.000000,-803.000000,-565.000000,-1415.000000,-912.000000,30.000000,30.000000,856.000000,-81.000000
8.500000,-639.000000,-816.000000,-698.000000,-1440.000000,-450.000000,-339.000000,21.000000,859.000000,-54.000000
8.550000,-53.000000,-845.000000,-661.000000,-1150.000000,-1034.000000,-50.000000,0.000000,869.000000,-47.000000
8.600000,-561.000000,-521.000000,-616.000000,-802.000000,-146.000000,-23.000000,-13.000000,875.000000,-35.000000
8.650000,-85.000000,-532.000000,-610.000000,-404.000000,-127.000000,24.000000,-22.000000,874.000000,-23.000000
