Sample Time, Accel_x,Accel_y,Accel_z,Gyro_x,Gyro_y,Gyro_z,Magneto_x,Magneto_y,Magneto_z
0.450000,57.000000,-870.000000,206.000000,-343.000000,-631.000000,-472.000000,366.000000,629.000000,-88.000000
0.500000,53.000000,-845.000000,206.000000,-572.000000,-676.000000,-704.000000,379.000000,624.000000,-75.000000
0.550000,325.000000,-734.000000,3.000000,-846.000000,-718.000000,-949.000000,399.000000,627.000000,-39.000000
0.600000,143.000000,-712.000000,-15.000000,-1050.000000,-532.000000,-1124.000000,399.000000,621.000000,9.000000
0.650000,559.000000,-576.000000,-151.000000,-1178.000000,-658.000000,-1169.000000,387.000000,611.000000,56.000000
0.700000,392.000000,-511.000000,-263.000000,-1292.000000,-466.000000,-1360.000000,354.000000,579.000000,111.000000
0.750000,498.000000,-391.000000,-459.000000,-1365.000000,-307.000000,-1397.000000,327.000000,552.000000,150.000000
0.800000,729.000000,-135.000000,-551.000000,-1430.000000,-338.000000,-1380.000000,282.000000,533.000000,197.000000
0.850000,753.000000,21.000000,-645.000000,-1407.000000,-282.000000,-1320.000000,229.000000,498.000000,239.000000
0.900000,832.000000,208.000000,-812.000000,-1387.000000,-76.000000,-1292.000000,174.000000,500.000000,276.000000
0.950000,1008.000000,180.000000,-686.000000,-1395.000000,-539.000000,-892.000000,105.000000,489.000000,314.000000
1.000000,580.000000,272.000000,-755.000000,-1202.000000,-180.000000,-1198.000000,39.000000,485.000000,332.000000
1.050000,940.000000,381.000000,-805.000000,-1120.000000,-144.000000,-1069.000000,-28.000000,497.000000,351.000000
1.100000,852.000000,394.000000,-709.000000,-948.000000,-347.000000,-863.000000,-84.000000,498.000000,356.000000
1.150000,616.000000,510.000000,-782.000000,-808.000000,-79.000000,-849.000000,-142.000000,509.000000,374.000000
1.200000,926.000000,536.000000,-736.000000,-599.000000,-74.000000,-614.000000,-172.000000,527.000000,375.000000
1.250000,791.000000,521.000000,-741.000000,-319.000000,-49.000000,-279.000000,-211.000000,528.000000,366.000000
1.300000,757.000000,460.000000,-768.000000,-53.000000,53.000000,-98.000000,-226.000000,534.000000,365.000000
1.350000,710.000000,495.000000,-757.000000,192.000000,123.000000,242.000000,-211.000000,531.000000,365.000000
1.400000,615.000000,497.000000,-745.000000,396.000000,175.000000,440.000000,-190.000000,509.000000,368.000000
1.450000,870.000000,462.000000,-691.000000,557.000000,106.000000,686.000000,-147.000000,516.000000,375.000000
1.500000,842.000000,446.000000,-749.000000,721.000000,67.000000,854.000000,-117.000000,497.000000,363.000000
1.550000,705.000000,373.000000,-739.000000,795.000000,231.000000,900.000000,-64.000000,485.000000,347.000000
1.600000,977.000000,359.000000,-724.000000,805.000000,32.000000,1134.000000,-6.000000,480.000000,344.000000
1.650000,792.000000,238.000000,-702.000000,882.000000,63.000000,1131.000000,46.000000,480.000000,327.000000
1.700000,784.000000,181.000000,-699.000000,861.000000,121.000000,1194.000000,100.000000,492.000000,323.000000
1.750000,887.000000,-6.000000,-593.000000,964.000000,19.000000,1285.000000,139.000000,503.000000,303.000000
1.800000,841.000000,-40.000000,-672.000000,1003.000000,17.000000,1337.000000,199.000000,515.000000,273.000000
1.850000,792.000000,-234.000000,-457.000000,1022.000000,26.000000,1453.000000,235.000000,537.000000,254.000000
1.900000,564.000000,-282.000000,-528.000000,1173.000000,275.000000,1284.000000,276.000000,542.000000,225.000000
1.950000,756.000000,-343.000000,-441.000000,1036.000000,319.000000,1493.000000,304.000000,569.000000,188.000000
2.000000,349.000000,-531.000000,-335.000000,1061.000000,326.000000,1329.000000,337.000000,597.000000,161.000000
2.050000,625.000000,-474.000000,-270.000000,1026.000000,321.000000,1390.000000,340.000000,639.000000,131.000000
2.100000,157.000000,-675.000000,-162.000000,1003.000000,497.000000,1031.000000,348.000000,660.000000,96.000000
2.150000,410.000000,-710.000000,-118.000000,985.000000,183.000000,1075.000000,357.000000,684.000000,71.000000
2.200000,40.000000,-797.000000,-27.000000,705.000000,322.000000,623.000000,361.000000,689.000000,38.000000
2.250000,-127.000000,-994.000000,88.000000,537.000000,4.000000,485.000000,360.000000,707.000000,12.000000
2.300000,-157.000000,-1078.000000,222.000000,244.000000,-870.000000,517.000000,343.000000,716.000000,-1.000000
2.350000,-154.000000,-1057.000000,260.000000,-287.000000,-69.000000,-387.000000,349.000000,719.000000,5.000000
2.400000,-141.000000,-922.000000,196.000000,-535.000000,-208.000000,-686.000000,360.000000,708.000000,9.000000
2.450000,257.000000,-795.000000,46.000000,-635.000000,-580.000000,-793.000000,370.000000,696.000000,26.000000
2.500000,85.000000,-730.000000,-31.000000,-822.000000,-483.000000,-1187.000000,382.000000,674.000000,44.000000
2.550000,591.000000,-605.000000,-235.000000,-995.000000,-629.000000,-1250.000000,379.000000,650.000000,74.000000
2.600000,485.000000,-593.000000,-160.000000,-1126.000000,-448.000000,-1294.000000,370.000000,612.000000,114.000000
2.650000,432.000000,-464.000000,-286.000000,-1195.000000,-229.000000,-1402.000000,340.000000,582.000000,155.000000
2.700000,728.000000,-244.000000,-575.000000,-1288.000000,-35.000000,-1390.000000,309.000000,554.000000,192.000000
2.750000,1048.000000,-118.000000,-676.000000,-1263.000000,-170.000000,-1199.000000,261.000000,534.000000,231.000000
2.800000,721.000000,-102.000000,-635.000000,-1177.000000,-282.000000,-1208.000000,211.000000,507.000000,261.000000
2.850000,833.000000,3.000000,-644.000000,-1059.000000,152.000000,-1292.000000,157.000000,488.000000,282.000000
2.900000,1154.000000,135.000000,-692.000000,-971.000000,-343.000000,-951.000000,105.000000,485.000000,309.000000
2.950000,614.000000,119.000000,-672.000000,-942.000000,-92.000000,-1036.000000,48.000000,468.000000,326.000000
3.000000,851.000000,277.000000,-688.000000,-870.000000,-98.000000,-1007.000000,-3.000000,458.000000,339.000000
3.050000,829.000000,333.000000,-587.000000,-803.000000,-249.000000,-898.000000,-48.000000,474.000000,348.000000
3.100000,724.000000,434.000000,-668.000000,-682.000000,-133.000000,-896.000000,-100.000000,482.000000,353.000000
3.150000,869.000000,510.000000,-645.000000,-623.000000,-98.000000,-664.000000,-139.000000,489.000000,354.000000
3.200000,815.000000,526.000000,-694.000000,-360.000000,-147.000000,-361.000000,-175.000000,503.000000,360.000000
3.250000,852.000000,511.000000,-727.000000,-179.000000,-113.000000,-114.000000,-198.000000,506.000000,369.000000
3.300000,875.000000,493.000000,-693.000000,22.000000,-5.000000,119.000000,-192.000000,504.000000,365.000000
3.350000,785.000000,434.000000,-695.000000,193.000000,-46.000000,373.000000,-183.000000,504.000000,363.000000
3.400000,792.000000,426.000000,-677.000000,373.000000,-12.000000,499.000000,-151.000000,510.000000,360.000000
3.450000,901.000000,415.000000,-676.000000,428.000000,-50.000000,713.000000,-130.000000,501.000000,357.000000
3.500000,838.000000,432.000000,-717.000000,585.000000,11.000000,776.000000,-105.000000,486.000000,354.000000
3.550000,857.000000,385.000000,-696.000000,701.000000,21.000000,918.000000,-52.000000,485.000000,351.000000
3.600000,864.000000,313.000000,-729.000000,814.000000,28.000000,953.000000,-9.000000,480.000000,338.000000
3.650000,807.000000,236.000000,-681.000000,826.000000,4.000000,1019.000000,40.000000,482.000000,327.000000
3.700000,820.000000,117.000000,-733.000000,854.000000,76.000000,1061.000000,93.000000,485.000000,311.000000
3.750000,728.000000,14.000000,-728.000000,860.000000,-34.000000,1115.000000,142.000000,494.000000,296.000000
3.800000,633.000000,-55.000000,-657.000000,919.000000,137.000000,1076.000000,184.000000,513.000000,281.000000
3.850000,719.000000,-224.000000,-596.000000,968.000000,63.000000,1166.000000,231.000000,522.000000,255.000000
3.900000,818.000000,-332.000000,-474.000000,1058.000000,52.000000,1225.000000,268.000000,545.000000,230.000000
3.950000,639.000000,-385.000000,-474.000000,1134.000000,74.000000,1290.000000,303.000000,575.000000,198.000000
4.000000,558.000000,-428.000000,-481.000000,1157.000000,86.000000,1266.000000,319.000000,597.000000,168.000000
4.050000,646.000000,-424.000000,-275.000000,1050.000000,340.000000,1193.000000,339.000000,626.000000,134.000000
4.100000,378.000000,-536.000000,-276.000000,1108.000000,-25.000000,1246.000000,352.000000,656.000000,99.000000
4.150000,426.000000,-619.000000,-69.000000,1108.000000,392.000000,1005.000000,352.000000,684.000000,74.000000
4.200000,152.000000,-739.000000,-49.000000,1194.000000,38.000000,830.000000,357.000000,704.000000,30.000000
4.250000,108.000000,-858.000000,133.000000,1045.000000,345.000000,577.000000,351.000000,713.000000,-28.000000
4.300000,-465.000000,-1148.000000,269.000000,881.000000,-1059.000000,975.000000,355.000000,714.000000,-51.000000
4.350000,58.000000,-1077.000000,265.000000,168.000000,-35.000000,272.000000,319.000000,719.000000,-63.000000
4.400000,-112.000000,-881.000000,222.000000,-682.000000,-191.000000,-346.000000,328.000000,723.000000,-52.000000
4.450000,-154.000000,-915.000000,310.000000,-902.000000,-186.000000,-756.000000,358.000000,710.000000,-33.000000
4.500000,24.000000,-734.000000,41.000000,-823.000000,-600.000000,-916.000000,366.000000,699.000000,-15.000000
4.550000,379.000000,-682.000000,-144.000000,-1047.000000,-480.000000,-1238.000000,375.000000,681.000000,20.000000
4.600000,183.000000,-648.000000,-117.000000,-1125.000000,-520.000000,-1136.000000,375.000000,648.000000,57.000000
4.650000,261.000000,-523.000000,-308.000000,-1304.000000,-282.000000,-1374.000000,373.000000,621.000000,104.000000
4.700000,691.000000,-427.000000,-421.000000,-1341.000000,-43.000000,-1295.000000,336.000000,594.000000,141.000000
4.750000,812.000000,-267.000000,-604.000000,-1259.000000,-257.000000,-1151.000000,310.000000,570.000000,182.000000
4.800000,656.000000,-191.000000,-623.000000,-1286.000000,-111.000000,-1156.000000,267.000000,548.000000,213.000000
4.850000,770.000000,-134.000000,-634.000000,-1283.000000,-12.000000,-1071.000000,216.000000,527.000000,255.000000
4.900000,615.000000,-53.000000,-688.000000,-1155.000000,-91.000000,-1151.000000,177.000000,506.000000,287.000000
4.950000,800.000000,72.000000,-719.000000,-1092.000000,7.000000,-1110.000000,117.000000,492.000000,300.000000
5.000000,818.000000,144.000000,-674.000000,-998.000000,-191.000000,-934.000000,63.000000,477.000000,320.000000
5.050000,593.000000,242.000000,-770.000000,-910.000000,-83.000000,-994.000000,9.000000,482.000000,347.000000
5.100000,1077.000000,315.000000,-697.000000,-838.000000,-82.000000,-848.000000,-30.000000,489.000000,345.000000
5.150000,492.000000,380.000000,-699.000000,-749.000000,11.000000,-860.000000,-84.000000,486.000000,356.000000
5.200000,761.000000,456.000000,-668.000000,-566.000000,67.000000,-728.000000,-127.000000,503.000000,356.000000
5.250000,894.000000,523.000000,-687.000000,-432.000000,-185.000000,-329.000000,-159.000000,500.000000,357.000000
5.300000,576.000000,507.000000,-728.000000,-238.000000,77.000000,-273.000000,-181.000000,512.000000,368.000000
5.350000,888.000000,474.000000,-667.000000,-44.000000,64.000000,7.000000,-177.000000,503.000000,365.000000
5.400000,725.000000,469.000000,-691.000000,149.000000,38.000000,246.000000,-175.000000,509.000000,360.000000
5.450000,648.000000,395.000000,-650.000000,290.000000,125.000000,361.000000,-157.000000,501.000000,356.000000
5.500000,819.000000,398.000000,-698.000000,434.000000,7.000000,644.000000,-133.000000,492.000000,359.000000
5.550000,771.000000,372.000000,-684.000000,595.000000,-26.000000,725.000000,-96.000000,491.000000,350.000000
5.600000,772.000000,394.000000,-730.000000,676.000000,72.000000,788.000000,-67.000000,494.000000,347.000000
5.650000,857.000000,303.000000,-676.000000,725.000000,83.000000,860.000000,-13.000000,474.000000,336.000000
5.700000,812.000000,270.000000,-712.000000,784.000000,-33.000000,996.000000,43.000000,470.000000,326.000000
5.750000,795.000000,228.000000,-702.000000,767.000000,112.000000,1011.000000,85.000000,482.000000,309.000000
5.800000,918.000000,77.000000,-667.000000,879.000000,114.000000,1005.000000,136.000000,486.000000,290.000000
5.850000,745.000000,-16.000000,-648.000000,827.000000,92.000000,1110.000000,184.000000,489.000000,273.000000
5.900000,870.000000,-135.000000,-628.000000,870.000000,304.000000,1117.000000,217.000000,510.000000,261.000000
5.950000,788.000000,-254.000000,-585.000000,801.000000,263.000000,1194.000000,247.000000,518.000000,233.000000
6.000000,836.000000,-387.000000,-469.000000,819.000000,84.000000,1484.000000,286.000000,536.000000,216.000000
6.050000,580.000000,-452.000000,-456.000000,1035.000000,44.000000,1488.000000,322.000000,560.000000,183.000000
6.100000,655.000000,-440.000000,-389.000000,1141.000000,284.000000,1384.000000,339.000000,600.000000,146.000000
6.150000,438.000000,-549.000000,-295.000000,1131.000000,405.000000,1375.000000,345.000000,633.000000,113.000000
6.200000,393.000000,-593.000000,-74.000000,1035.000000,513.000000,1259.000000,352.000000,657.000000,77.000000
6.250000,150.000000,-644.000000,-66.000000,1019.000000,349.000000,1150.000000,358.000000,681.000000,38.000000
6.300000,172.000000,-699.000000,65.000000,858.000000,190.000000,803.000000,349.000000,710.000000,2.000000
6.350000,-470.000000,-1005.000000,251.000000,681.000000,-512.000000,834.000000,343.000000,722.000000,-18.000000
6.400000,-298.000000,-1150.000000,288.000000,422.000000,-396.000000,479.000000,321.000000,729.000000,-28.000000
6.450000,-70.000000,-1057.000000,264.000000,-197.000000,-343.000000,-24.000000,321.000000,732.000000,-36.000000
6.500000,-130.000000,-938.000000,213.000000,-516.000000,-284.000000,-632.000000,348.000000,732.000000,-24.000000
6.550000,50.000000,-829.000000,115.000000,-536.000000,-632.000000,-712.000000,354.000000,716.000000,-19.000000
6.600000,176.000000,-750.000000,-12.000000,-676.000000,-637.000000,-897.000000,364.000000,698.000000,8.000000
6.650000,223.000000,-723.000000,-62.000000,-929.000000,-447.000000,-1092.000000,376.000000,674.000000,30.000000
6.700000,588.000000,-607.000000,-282.000000,-1095.000000,-648.000000,-1005.000000,370.000000,659.000000,53.000000
6.750000,414.000000,-641.000000,-157.000000,-1218.000000,-394.000000,-1177.000000,369.000000,633.000000,93.000000
6.800000,803.000000,-369.000000,-539.000000,-1268.000000,-329.000000,-1061.000000,334.000000,609.000000,140.000000
6.850000,482.000000,-320.000000,-602.000000,-1317.000000,-5.000000,-1089.000000,321.000000,588.000000,174.000000
6.900000,657.000000,-299.000000,-669.000000,-1314.000000,-33.000000,-1078.000000,288.000000,560.000000,212.000000
6.950000,660.000000,-211.000000,-615.000000,-1286.000000,-305.000000,-989.000000,241.000000,537.000000,245.000000
7.000000,977.000000,-71.000000,-724.000000,-1244.000000,114.000000,-1192.000000,192.000000,524.000000,275.000000
7.050000,866.000000,27.000000,-789.000000,-1152.000000,-279.000000,-922.000000,141.000000,515.000000,308.000000
7.100000,658.000000,92.000000,-713.000000,-1078.000000,14.000000,-1113.000000,87.000000,503.000000,324.000000
7.150000,848.000000,267.000000,-699.000000,-989.000000,-10.000000,-1010.000000,30.000000,501.000000,336.000000
7.200000,724.000000,388.000000,-757.000000,-862.000000,-111.000000,-856.000000,-30.000000,492.000000,354.000000
7.250000,719.000000,427.000000,-729.000000,-732.000000,-20.000000,-848.000000,-73.000000,503.000000,350.000000
7.300000,888.000000,469.000000,-719.000000,-658.000000,-125.000000,-624.000000,-111.000000,503.000000,359.000000
7.350000,643.000000,540.000000,-741.000000,-443.000000,-1.000000,-673.000000,-153.000000,507.000000,360.000000
7.400000,847.000000,579.000000,-683.000000,-322.000000,-21.000000,-412.000000,-184.000000,522.000000,368.000000
7.450000,649.000000,592.000000,-648.000000,-185.000000,20.000000,-270.000000,-196.000000,516.000000,363.000000
7.500000,683.000000,547.000000,-665.000000,25.000000,37.000000,-35.000000,-204.000000,516.000000,365.000000
7.550000,723.000000,526.000000,-698.000000,180.000000,48.000000,138.000000,-183.000000,512.000000,365.000000
7.600000,722.000000,491.000000,-658.000000,299.000000,4.000000,320.000000,-181.000000,506.000000,359.000000
7.650000,718.000000,498.000000,-709.000000,427.000000,109.000000,392.000000,-153.000000,498.000000,351.000000
7.700000,846.000000,488.000000,-713.000000,527.000000,2.000000,535.000000,-117.000000,501.000000,357.000000
7.750000,693.000000,457.000000,-729.000000,593.000000,164.000000,515.000000,-90.000000,491.000000,347.000000
7.800000,681.000000,415.000000,-738.000000,648.000000,200.000000,511.000000,-48.000000,486.000000,342.000000
7.850000,745.000000,376.000000,-633.000000,596.000000,53.000000,745.000000,-15.000000,476.000000,336.000000
7.900000,727.000000,400.000000,-668.000000,689.000000,77.000000,760.000000,25.000000,474.000000,323.000000
7.950000,754.000000,313.000000,-722.000000,646.000000,140.000000,800.000000,66.000000,476.000000,323.000000
8.000000,811.000000,223.000000,-659.000000,656.000000,193.000000,842.000000,109.000000,473.000000,306.000000
8.050000,767.000000,49.000000,-615.000000,702.000000,195.000000,903.000000,142.000000,473.000000,287.000000
8.100000,753.000000,-40.000000,-619.000000,793.000000,322.000000,764.000000,172.000000,480.000000,270.000000
8.150000,679.000000,-94.000000,-636.000000,774.000000,396.000000,892.000000,211.000000,480.000000,248.000000
8.200000,795.000000,-273.000000,-521.000000,800.000000,406.000000,991.000000,250.000000,486.000000,222.000000
8.250000,847.000000,-324.000000,-488.000000,949.000000,294.000000,1131.000000,273.000000,498.000000,198.000000
8.300000,693.000000,-407.000000,-379.000000,1005.000000,542.000000,1108.000000,303.000000,507.000000,176.000000
8.350000,784.000000,-417.000000,-291.000000,1016.000000,310.000000,1289.000000,339.000000,533.000000,134.000000
8.400000,476.000000,-493.000000,-405.000000,983.000000,497.000000,1193.000000,346.000000,558.000000,93.000000
8.450000,767.000000,-655.000000,-31.000000,975.000000,407.000000,1194.000000,369.000000,584.000000,74.000000
8.500000,321.000000,-663.000000,-125.000000,1013.000000,429.000000,1374.000000,366.000000,612.000000,50.000000
8.550000,565.000000,-692.000000,130.000000,1094.000000,431.000000,1138.000000,372.000000,659.000000,20.000000
8.600000,116.000000,-677.000000,54.000000,988.000000,613.000000,1124.000000,354.000000,687.000000,-27.000000
8.650000,-56.000000,-912.000000,339.000000,546.000000,550.000000,1086.000000,333.000000,711.000000,-43.000000
8.700000,-502.000000,-1156.000000,514.000000,595.000000,-590.000000,1274.000000,312.000000,725.000000,-52.000000
8.750000,-316.000000,-1074.000000,331.000000,30.000000,171.000000,112.000000,288.000000,758.000000,-46.000000
8.800000,-203.000000,-841.000000,234.000000,-677.000000,-76.000000,-623.000000,310.000000,744.000000,-48.000000
8.850000,34.000000,-839.000000,328.000000,-783.000000,-588.000000,-835.000000,339.000000,741.000000,-25.000000
8.900000,-14.000000,-793.000000,175.000000,-774.000000,-800.000000,-870.000000,351.000000,720.000000,-19.000000
8.950000,333.000000,-753.000000,71.000000,-856.000000,-705.000000,-1096.000000,375.000000,684.000000,5.000000
9.000000,229.000000,-711.000000,-40.000000,-989.000000,-440.000000,-1308.000000,381.000000,654.000000,29.000000
9.050000,569.000000,-588.000000,-139.000000,-1131.000000,-501.000000,-1274.000000,375.000000,624.000000,77.000000
9.100000,463.000000,-468.000000,-315.000000,-1210.000000,-360.000000,-1340.000000,367.000000,588.000000,105.000000
9.150000,601.000000,-315.000000,-504.000000,-1173.000000,-345.000000,-1302.000000,334.000000,558.000000,144.000000
9.200000,742.000000,-264.000000,-536.000000,-1329.000000,-334.000000,-1141.000000,309.000000,525.000000,168.000000
9.250000,818.000000,-262.000000,-543.000000,-1337.000000,-378.000000,-1124.000000,268.000000,516.000000,213.000000
9.300000,665.000000,-143.000000,-539.000000,-1326.000000,-326.000000,-1107.000000,214.000000,504.000000,251.000000
9.350000,655.000000,-2.000000,-684.000000,-1323.000000,33.000000,-1333.000000,157.000000,482.000000,284.000000
9.400000,1054.000000,130.000000,-714.000000,-1248.000000,-416.000000,-1087.000000,102.000000,494.000000,312.000000
9.450000,653.000000,285.000000,-766.000000,-1164.000000,-427.000000,-1134.000000,25.000000,489.000000,332.000000
9.500000,796.000000,364.000000,-772.000000,-1090.000000,-352.000000,-1145.000000,-34.000000,501.000000,350.000000
9.550000,597.000000,514.000000,-799.000000,-966.000000,-508.000000,-1073.000000,-106.000000,528.000000,360.000000
9.600000,653.000000,614.000000,-688.000000,-933.000000,-247.000000,-1066.000000,-163.000000,545.000000,374.000000
9.650000,685.000000,750.000000,-785.000000,-686.000000,-240.000000,-768.000000,-199.000000,558.000000,381.000000
9.700000,561.000000,710.000000,-761.000000,-489.000000,-111.000000,-564.000000,-240.000000,569.000000,396.000000
9.750000,737.000000,566.000000,-793.000000,-217.000000,2.000000,-279.000000,-262.000000,575.000000,386.000000
9.800000,724.000000,537.000000,-753.000000,147.000000,181.000000,28.000000,-256.000000,579.000000,383.000000
9.850000,595.000000,589.000000,-740.000000,323.000000,398.000000,177.000000,-243.000000,560.000000,381.000000
